TRIAL_SESSION	TRIAL_INDEX_ENCODING	TRIAL_WORD_ENCODING	TRIAL_CONDITION_ENCODING	TRIAL_COLOUR_ENCODING	TRIAL_INDEX_RECOG	wordrecog_1	condition_1	correctanswer_1	KEYPRESS_RECOG	RT_RECOG
3	1	UNCLE	Aloud	Purple	0	SPOKE	old	m	.	    0.00
3	2	STORY	Silent	Green	0	SPOKE	old	m	.	    0.00
3	3	TODAY	Silent	Green	0	SPOKE	old	m	.	    0.00
3	4	WHILE	Silent	Green	0	SPOKE	old	m	.	    0.00
3	5	SENSE	Silent	Green	0	SPOKE	old	m	.	    0.00
3	6	FIGHT	Aloud	Purple	0	SPOKE	old	m	.	    0.00
3	7	DROVE	Silent	Green	0	SPOKE	old	m	.	    0.00
3	8	GRASS	Aloud	Purple	0	SPOKE	old	m	.	    0.00
3	9	TRUCK	Silent	Green	0	SPOKE	old	m	.	    0.00
3	10	LOOSE	Silent	Green	0	SPOKE	old	m	.	    0.00
3	11	MEANS	Aloud	Purple	0	SPOKE	old	m	.	    0.00
3	12	WORLD	Aloud	Purple	0	SPOKE	old	m	.	    0.00
3	13	EARTH	Aloud	Purple	0	SPOKE	old	m	.	    0.00
3	14	UNDER	Silent	Green	0	SPOKE	old	m	.	    0.00
3	15	LATIN	Aloud	Purple	0	SPOKE	old	m	.	    0.00
3	16	FIELD	Silent	Green	0	SPOKE	old	m	.	    0.00
3	17	WRONG	Silent	Green	0	SPOKE	old	m	.	    0.00
3	18	REACH	Silent	Green	0	SPOKE	old	m	.	    0.00
3	19	PHASE	Aloud	Purple	0	SPOKE	old	m	.	    0.00
3	20	SHARP	Silent	Green	0	SPOKE	old	m	.	    0.00
3	21	EMPTY	Silent	Green	0	SPOKE	old	m	.	    0.00
3	22	HORSE	Aloud	Purple	0	SPOKE	old	m	.	    0.00
3	23	LEVEL	Silent	Green	0	SPOKE	old	m	.	    0.00
3	24	PRICE	Aloud	Purple	0	SPOKE	old	m	.	    0.00
3	25	THIRD	Aloud	Purple	0	SPOKE	old	m	.	    0.00
3	26	BLOOD	Aloud	Purple	0	SPOKE	old	m	.	    0.00
3	27	SIGHT	Silent	Green	0	SPOKE	old	m	.	    0.00
3	28	PRESS	Silent	Green	0	SPOKE	old	m	.	    0.00
3	29	TOTAL	Aloud	Purple	0	SPOKE	old	m	.	    0.00
3	30	WATCH	Silent	Green	0	SPOKE	old	m	.	    0.00
3	31	SPEED	Aloud	Purple	0	SPOKE	old	m	.	    0.00
3	32	STAGE	Silent	Green	0	SPOKE	old	m	.	    0.00
3	33	MOUTH	Aloud	Purple	0	SPOKE	old	m	.	    0.00
3	34	HOTEL	Silent	Green	0	SPOKE	old	m	.	    0.00
3	35	RIVER	Aloud	Purple	0	SPOKE	old	m	.	    0.00
3	36	SPOKE	Aloud	Purple	0	SPOKE	old	m	.	    0.00
3	37	TRUST	Silent	Green	0	SPOKE	old	m	.	    0.00
3	38	FORCE	Silent	Green	0	SPOKE	old	m	.	    0.00
3	39	LEAVE	Aloud	Purple	0	SPOKE	old	m	.	    0.00
3	40	RIGHT	Aloud	Purple	0	SPOKE	old	m	.	    0.00
3	41	MONEY	Silent	Green	0	SPOKE	old	m	.	    0.00
3	42	SHARE	Silent	Green	0	SPOKE	old	m	.	    0.00
3	43	PIECE	Silent	Green	0	SPOKE	old	m	.	    0.00
3	44	RANGE	Aloud	Purple	0	SPOKE	old	m	.	    0.00
3	45	ENEMY	Aloud	Purple	0	SPOKE	old	m	.	    0.00
3	46	KNIFE	Silent	Green	0	SPOKE	old	m	.	    0.00
3	47	WHEEL	Aloud	Purple	0	SPOKE	old	m	.	    0.00
3	48	STORE	Aloud	Purple	0	SPOKE	old	m	.	    0.00
3	49	TABLE	Silent	Green	0	SPOKE	old	m	.	    0.00
3	50	INDEX	Aloud	Purple	0	SPOKE	old	m	.	    0.00
3	51	THICK	Silent	Green	0	SPOKE	old	m	.	    0.00
3	52	MIGHT	Aloud	Purple	0	SPOKE	old	m	.	    0.00
3	53	STAND	Silent	Green	0	SPOKE	old	m	.	    0.00
3	54	MARCH	Aloud	Purple	0	SPOKE	old	m	.	    0.00
3	55	TITLE	Aloud	Purple	0	SPOKE	old	m	.	    0.00
3	56	START	Aloud	Purple	0	SPOKE	old	m	.	    0.00
3	57	ROUND	Silent	Green	0	SPOKE	old	m	.	    0.00
3	58	SCALE	Silent	Green	0	SPOKE	old	m	.	    0.00
3	59	WHITE	Aloud	Purple	0	SPOKE	old	m	.	    0.00
3	60	STOCK	Aloud	Purple	0	SPOKE	old	m	.	    0.00
3	61	DREAM	Aloud	Purple	0	SPOKE	old	m	.	    0.00
3	62	PEACE	Silent	Green	0	SPOKE	old	m	.	    0.00
3	63	FLESH	Aloud	Purple	0	SPOKE	old	m	.	    0.00
3	64	SHAPE	Silent	Green	0	SPOKE	old	m	.	    0.00
3	65	DRIVE	Silent	Green	0	SPOKE	old	m	.	    0.00
3	66	MUSIC	Aloud	Purple	0	SPOKE	old	m	.	    0.00
3	67	MOTOR	Silent	Green	0	SPOKE	old	m	.	    0.00
3	68	SWEET	Silent	Green	0	SPOKE	old	m	.	    0.00
3	69	FLOOR	Aloud	Purple	0	SPOKE	old	m	.	    0.00
3	70	DRINK	Aloud	Purple	0	SPOKE	old	m	.	    0.00
3	71	SCENE	Silent	Green	0	SPOKE	old	m	.	    0.00
3	72	DOZEN	Silent	Green	0	SPOKE	old	m	.	    0.00
3	73	STILL	Aloud	Purple	0	SPOKE	old	m	.	    0.00
3	74	STAFF	Aloud	Purple	0	SPOKE	old	m	.	    0.00
3	75	MONTH	Silent	Green	0	SPOKE	old	m	.	    0.00
3	76	UPPER	Aloud	Purple	0	SPOKE	old	m	.	    0.00
3	77	STUDY	Aloud	Purple	0	SPOKE	old	m	.	    0.00
3	78	TASTE	Aloud	Purple	0	SPOKE	old	m	.	    0.00
3	79	SMITH	Silent	Green	0	SPOKE	old	m	.	    0.00
3	80	STYLE	Silent	Green	0	SPOKE	old	m	.	    0.00
3	80	STYLE	Silent	Green	1	HOUSE	new	n	m	1920
3	80	STYLE	Silent	Green	2	GROSS	new	n	n	1290
3	80	STYLE	Silent	Green	3	EVENT	new	n	n	1551
3	80	STYLE	Silent	Green	4	UNITY	new	n	n	683
3	80	STYLE	Silent	Green	5	VISIT	new	n	n	902
3	80	STYLE	Silent	Green	6	START	old	m	m	867
3	80	STYLE	Silent	Green	7	GLASS	new	n	n	865
3	80	STYLE	Silent	Green	8	WOMEN	new	n	n	759
3	80	STYLE	Silent	Green	9	ROUND	old	m	n	1425
3	80	STYLE	Silent	Green	10	FORCE	old	m	n	737
3	80	STYLE	Silent	Green	11	STAFF	old	m	m	836
3	80	STYLE	Silent	Green	12	PLANE	new	n	n	883
3	80	STYLE	Silent	Green	13	LOOSE	old	m	m	816
3	80	STYLE	Silent	Green	14	THEME	new	n	n	1065
3	80	STYLE	Silent	Green	15	METAL	new	n	n	759
3	80	STYLE	Silent	Green	16	WHEEL	old	m	m	841
3	80	STYLE	Silent	Green	17	HEART	new	n	n	1128
3	80	STYLE	Silent	Green	18	SHARE	old	m	n	812
3	80	STYLE	Silent	Green	19	RIVER	old	m	m	1097
3	80	STYLE	Silent	Green	20	STORE	old	m	m	879
3	80	STYLE	Silent	Green	21	MUSIC	old	m	n	1077
3	80	STYLE	Silent	Green	22	DROVE	old	m	m	2346
3	80	STYLE	Silent	Green	23	STUDY	old	m	m	628
3	80	STYLE	Silent	Green	24	GREEK	new	n	n	1148
3	80	STYLE	Silent	Green	25	MARCH	old	m	n	2606
3	80	STYLE	Silent	Green	26	MAJOR	new	n	n	798
3	80	STYLE	Silent	Green	27	RADIO	new	n	n	887
3	80	STYLE	Silent	Green	28	WATCH	old	m	m	853
3	80	STYLE	Silent	Green	29	FLOOR	old	m	m	660
3	80	STYLE	Silent	Green	30	STAGE	old	m	m	953
3	80	STYLE	Silent	Green	31	LEAST	new	n	n	700
3	80	STYLE	Silent	Green	32	IMAGE	new	n	n	961
3	80	STYLE	Silent	Green	33	MONTH	old	m	n	779
3	80	STYLE	Silent	Green	34	DRIVE	old	m	m	788
3	80	STYLE	Silent	Green	35	SHARP	old	m	m	1132
3	80	STYLE	Silent	Green	36	TOTAL	old	m	m	680
3	80	STYLE	Silent	Green	37	SENSE	old	m	n	1542
3	80	STYLE	Silent	Green	38	SPOKE	old	m	n	904
3	80	STYLE	Silent	Green	39	PEACE	old	m	m	923
3	80	STYLE	Silent	Green	40	FLESH	old	m	m	672
3	80	STYLE	Silent	Green	41	DRESS	new	n	n	941
3	80	STYLE	Silent	Green	42	EMPTY	old	m	n	1079
3	80	STYLE	Silent	Green	43	MONEY	old	m	n	1053
3	80	STYLE	Silent	Green	44	SOLID	new	n	n	940
3	80	STYLE	Silent	Green	45	NOVEL	new	n	n	1454
3	80	STYLE	Silent	Green	46	INNER	new	n	n	605
3	80	STYLE	Silent	Green	47	SHAPE	old	m	m	741
3	80	STYLE	Silent	Green	48	HOTEL	old	m	m	871
3	80	STYLE	Silent	Green	49	IDEAL	new	n	n	892
3	80	STYLE	Silent	Green	50	STORY	old	m	m	880
3	80	STYLE	Silent	Green	51	EXTRA	new	n	n	967
3	80	STYLE	Silent	Green	52	THREE	new	n	n	1696
3	80	STYLE	Silent	Green	53	LOCAL	new	n	n	716
3	80	STYLE	Silent	Green	54	GUESS	new	n	m	3072
3	80	STYLE	Silent	Green	55	RANGE	old	m	m	775
3	80	STYLE	Silent	Green	56	MOUTH	old	m	m	695
3	80	STYLE	Silent	Green	57	HORSE	old	m	m	747
3	80	STYLE	Silent	Green	58	TRAIN	new	n	n	1118
3	80	STYLE	Silent	Green	59	RIFLE	new	n	n	908
3	80	STYLE	Silent	Green	60	LOUIS	new	n	n	751
3	80	STYLE	Silent	Green	61	TRIAL	new	n	n	1058
3	80	STYLE	Silent	Green	62	FRONT	new	n	m	1534
3	80	STYLE	Silent	Green	63	DREAM	old	m	m	3810
3	80	STYLE	Silent	Green	64	SCENE	old	m	m	707
3	80	STYLE	Silent	Green	65	FIFTY	new	n	n	934
3	80	STYLE	Silent	Green	66	LATIN	old	m	m	914
3	80	STYLE	Silent	Green	67	SIGHT	old	m	n	909
3	80	STYLE	Silent	Green	68	SOUTH	new	n	n	1133
3	80	STYLE	Silent	Green	69	SOUND	new	n	m	1144
3	80	STYLE	Silent	Green	70	TASTE	old	m	m	802
3	80	STYLE	Silent	Green	71	POINT	new	n	n	948
3	80	STYLE	Silent	Green	72	STOCK	old	m	m	879
3	80	STYLE	Silent	Green	73	MODEL	new	n	n	1298
3	80	STYLE	Silent	Green	74	WRONG	old	m	n	1816
3	80	STYLE	Silent	Green	75	SPEED	old	m	m	1039
3	80	STYLE	Silent	Green	76	FRAME	new	n	n	990
3	80	STYLE	Silent	Green	77	PRICE	old	m	m	1031
3	80	STYLE	Silent	Green	78	GREEN	new	n	n	6094
3	80	STYLE	Silent	Green	79	QUIET	new	n	n	1043
3	80	STYLE	Silent	Green	80	THICK	old	m	m	945
3	80	STYLE	Silent	Green	81	STYLE	old	m	n	1253
3	80	STYLE	Silent	Green	82	MIGHT	old	m	n	931
3	80	STYLE	Silent	Green	83	SMITH	old	m	m	830
3	80	STYLE	Silent	Green	84	WOMAN	new	n	m	791
3	80	STYLE	Silent	Green	85	LEWIS	new	n	n	1270
3	80	STYLE	Silent	Green	86	DRINK	old	m	m	1116
3	80	STYLE	Silent	Green	87	LEAVE	old	m	m	735
3	80	STYLE	Silent	Green	88	SPITE	new	n	n	1218
3	80	STYLE	Silent	Green	89	SPACE	new	n	m	851
3	80	STYLE	Silent	Green	90	TRUCK	old	m	n	1081
3	80	STYLE	Silent	Green	91	PHASE	old	m	m	893
3	80	STYLE	Silent	Green	92	LEVEL	old	m	n	1130
3	80	STYLE	Silent	Green	93	SCALE	old	m	n	949
3	80	STYLE	Silent	Green	94	FIGHT	old	m	m	2760
3	80	STYLE	Silent	Green	95	MOTOR	old	m	n	795
3	80	STYLE	Silent	Green	96	BLOOD	old	m	m	908
3	80	STYLE	Silent	Green	97	NORTH	new	n	n	999
3	80	STYLE	Silent	Green	98	KNIFE	old	m	m	769
3	80	STYLE	Silent	Green	99	GRASS	old	m	n	923
3	80	STYLE	Silent	Green	100	PHONE	new	n	n	3286
3	80	STYLE	Silent	Green	101	FIELD	old	m	n	1067
3	80	STYLE	Silent	Green	102	ORDER	new	n	n	1176
3	80	STYLE	Silent	Green	103	EARTH	old	m	m	818
3	80	STYLE	Silent	Green	104	THIRD	old	m	n	1225
3	80	STYLE	Silent	Green	105	UPPER	old	m	n	1450
3	80	STYLE	Silent	Green	106	TITLE	old	m	m	961
3	80	STYLE	Silent	Green	107	WATER	new	n	n	993
3	80	STYLE	Silent	Green	108	PAPER	new	n	n	658
3	80	STYLE	Silent	Green	109	JUDGE	new	n	n	778
3	80	STYLE	Silent	Green	110	TODAY	old	m	n	1082
3	80	STYLE	Silent	Green	111	UNCLE	old	m	m	814
3	80	STYLE	Silent	Green	112	EQUAL	new	n	n	1014
3	80	STYLE	Silent	Green	113	VALUE	new	n	n	1830
3	80	STYLE	Silent	Green	114	EIGHT	new	n	n	781
3	80	STYLE	Silent	Green	115	INDEX	old	m	n	854
3	80	STYLE	Silent	Green	116	OFFER	new	n	n	772
3	80	STYLE	Silent	Green	117	OTHER	new	n	n	879
3	80	STYLE	Silent	Green	118	GROUP	new	n	n	1107
3	80	STYLE	Silent	Green	119	YOUTH	new	n	n	846
3	80	STYLE	Silent	Green	120	TRADE	new	n	n	886
3	80	STYLE	Silent	Green	121	SLEEP	new	n	m	915
3	80	STYLE	Silent	Green	122	RIGHT	old	m	m	2456
3	80	STYLE	Silent	Green	123	WHITE	old	m	n	1238
3	80	STYLE	Silent	Green	124	STILL	old	m	n	2037
3	80	STYLE	Silent	Green	125	TRUST	old	m	n	900
3	80	STYLE	Silent	Green	126	MORAL	new	n	n	856
3	80	STYLE	Silent	Green	127	UNDER	old	m	n	838
3	80	STYLE	Silent	Green	128	STONE	new	n	n	749
3	80	STYLE	Silent	Green	129	TRUTH	new	n	n	896
3	80	STYLE	Silent	Green	130	STATE	new	n	n	1069
3	80	STYLE	Silent	Green	131	WORLD	old	m	m	1178
3	80	STYLE	Silent	Green	132	SWEET	old	m	n	955
3	80	STYLE	Silent	Green	133	WHILE	old	m	n	741
3	80	STYLE	Silent	Green	134	VOICE	new	n	n	721
3	80	STYLE	Silent	Green	135	PIECE	old	m	n	844
3	80	STYLE	Silent	Green	136	QUICK	new	n	n	978
3	80	STYLE	Silent	Green	137	WAGON	new	n	n	733
3	80	STYLE	Silent	Green	138	ISSUE	new	n	n	642
3	80	STYLE	Silent	Green	139	SEVEN	new	n	n	1495
3	80	STYLE	Silent	Green	140	MEANS	old	m	m	916
3	80	STYLE	Silent	Green	141	LIGHT	new	n	m	1360
3	80	STYLE	Silent	Green	142	SHORE	new	n	n	874
3	80	STYLE	Silent	Green	143	REACH	old	m	n	999
3	80	STYLE	Silent	Green	144	SCORE	new	n	n	809
3	80	STYLE	Silent	Green	145	SMILE	new	n	n	976
3	80	STYLE	Silent	Green	146	STAND	old	m	m	1146
3	80	STYLE	Silent	Green	147	SHORT	new	n	n	1030
3	80	STYLE	Silent	Green	148	TABLE	old	m	n	1253
3	80	STYLE	Silent	Green	149	DOZEN	old	m	m	1026
3	80	STYLE	Silent	Green	150	PARTY	new	n	n	882
3	80	STYLE	Silent	Green	151	TOUCH	new	n	m	1040
3	80	STYLE	Silent	Green	152	MINOR	new	n	n	1086
3	80	STYLE	Silent	Green	153	PLANT	new	n	n	884
3	80	STYLE	Silent	Green	154	PRESS	old	m	n	952
3	80	STYLE	Silent	Green	155	NIGHT	new	n	n	1020
3	80	STYLE	Silent	Green	156	SERVE	new	n	n	818
3	80	STYLE	Silent	Green	157	THING	new	n	n	874
3	80	STYLE	Silent	Green	158	ENEMY	old	m	n	832
3	80	STYLE	Silent	Green	159	SMALL	new	n	m	3727
3	80	STYLE	Silent	Green	160	TEETH	new	n	n	937
