TRIAL_SESSION	TRIAL_INDEX_ENCODING	TRIAL_WORD_ENCODING	TRIAL_CONDITION_ENCODING	TRIAL_COLOUR_ENCODING	TRIAL_INDEX_RECOG	wordrecog_1	condition_1	correctanswer_1	KEYPRESS_RECOG	RT_RECOG
4	1	STOCK	Silent	Purple	0	SPOKE	old	m	.	    0.00
4	2	SCENE	Silent	Purple	0	SPOKE	old	m	.	    0.00
4	3	WORLD	Silent	Purple	0	SPOKE	old	m	.	    0.00
4	4	MIGHT	Silent	Purple	0	SPOKE	old	m	.	    0.00
4	5	STAND	Aloud	Green	0	SPOKE	old	m	.	    0.00
4	6	LEVEL	Silent	Purple	0	SPOKE	old	m	.	    0.00
4	7	TRUCK	Silent	Purple	0	SPOKE	old	m	.	    0.00
4	8	SHARP	Silent	Purple	0	SPOKE	old	m	.	    0.00
4	9	SPEED	Aloud	Green	0	SPOKE	old	m	.	    0.00
4	10	PEACE	Silent	Purple	0	SPOKE	old	m	.	    0.00
4	11	FIGHT	Aloud	Green	0	SPOKE	old	m	.	    0.00
4	12	STUDY	Silent	Purple	0	SPOKE	old	m	.	    0.00
4	13	UPPER	Aloud	Green	0	SPOKE	old	m	.	    0.00
4	14	ROUND	Silent	Purple	0	SPOKE	old	m	.	    0.00
4	15	LATIN	Silent	Purple	0	SPOKE	old	m	.	    0.00
4	16	TRUST	Aloud	Green	0	SPOKE	old	m	.	    0.00
4	17	STYLE	Silent	Purple	0	SPOKE	old	m	.	    0.00
4	18	WHITE	Silent	Purple	0	SPOKE	old	m	.	    0.00
4	19	REACH	Silent	Purple	0	SPOKE	old	m	.	    0.00
4	20	WATCH	Silent	Purple	0	SPOKE	old	m	.	    0.00
4	21	STORY	Aloud	Green	0	SPOKE	old	m	.	    0.00
4	22	START	Silent	Purple	0	SPOKE	old	m	.	    0.00
4	23	STAGE	Silent	Purple	0	SPOKE	old	m	.	    0.00
4	24	MARCH	Silent	Purple	0	SPOKE	old	m	.	    0.00
4	25	STAFF	Silent	Purple	0	SPOKE	old	m	.	    0.00
4	26	FORCE	Silent	Purple	0	SPOKE	old	m	.	    0.00
4	27	SIGHT	Aloud	Green	0	SPOKE	old	m	.	    0.00
4	28	TITLE	Silent	Purple	0	SPOKE	old	m	.	    0.00
4	29	STILL	Silent	Purple	0	SPOKE	old	m	.	    0.00
4	30	MEANS	Silent	Purple	0	SPOKE	old	m	.	    0.00
4	31	SWEET	Aloud	Green	0	SPOKE	old	m	.	    0.00
4	32	PRESS	Aloud	Green	0	SPOKE	old	m	.	    0.00
4	33	PIECE	Aloud	Green	0	SPOKE	old	m	.	    0.00
4	34	EARTH	Aloud	Green	0	SPOKE	old	m	.	    0.00
4	35	RIVER	Aloud	Green	0	SPOKE	old	m	.	    0.00
4	36	DRIVE	Silent	Purple	0	SPOKE	old	m	.	    0.00
4	37	INDEX	Aloud	Green	0	SPOKE	old	m	.	    0.00
4	38	DROVE	Aloud	Green	0	SPOKE	old	m	.	    0.00
4	39	SHAPE	Aloud	Green	0	SPOKE	old	m	.	    0.00
4	40	MONTH	Aloud	Green	0	SPOKE	old	m	.	    0.00
4	41	DOZEN	Aloud	Green	0	SPOKE	old	m	.	    0.00
4	42	TASTE	Silent	Purple	0	SPOKE	old	m	.	    0.00
4	43	TABLE	Aloud	Green	0	SPOKE	old	m	.	    0.00
4	44	STORE	Silent	Purple	0	SPOKE	old	m	.	    0.00
4	45	SHARE	Silent	Purple	0	SPOKE	old	m	.	    0.00
4	46	MUSIC	Aloud	Green	0	SPOKE	old	m	.	    0.00
4	47	FIELD	Silent	Purple	0	SPOKE	old	m	.	    0.00
4	48	GRASS	Silent	Purple	0	SPOKE	old	m	.	    0.00
4	49	WHEEL	Aloud	Green	0	SPOKE	old	m	.	    0.00
4	50	HOTEL	Silent	Purple	0	SPOKE	old	m	.	    0.00
4	51	LEAVE	Silent	Purple	0	SPOKE	old	m	.	    0.00
4	52	FLESH	Silent	Purple	0	SPOKE	old	m	.	    0.00
4	53	TODAY	Aloud	Green	0	SPOKE	old	m	.	    0.00
4	54	PHASE	Aloud	Green	0	SPOKE	old	m	.	    0.00
4	55	SCALE	Aloud	Green	0	SPOKE	old	m	.	    0.00
4	56	THICK	Silent	Purple	0	SPOKE	old	m	.	    0.00
4	57	SPOKE	Silent	Purple	0	SPOKE	old	m	.	    0.00
4	58	PRICE	Aloud	Green	0	SPOKE	old	m	.	    0.00
4	59	RANGE	Silent	Purple	0	SPOKE	old	m	.	    0.00
4	60	THIRD	Aloud	Green	0	SPOKE	old	m	.	    0.00
4	61	LOOSE	Aloud	Green	0	SPOKE	old	m	.	    0.00
4	62	DREAM	Aloud	Green	0	SPOKE	old	m	.	    0.00
4	63	ENEMY	Aloud	Green	0	SPOKE	old	m	.	    0.00
4	64	SENSE	Aloud	Green	0	SPOKE	old	m	.	    0.00
4	65	WRONG	Aloud	Green	0	SPOKE	old	m	.	    0.00
4	66	BLOOD	Aloud	Green	0	SPOKE	old	m	.	    0.00
4	67	SMITH	Silent	Purple	0	SPOKE	old	m	.	    0.00
4	68	MOTOR	Aloud	Green	0	SPOKE	old	m	.	    0.00
4	69	TOTAL	Silent	Purple	0	SPOKE	old	m	.	    0.00
4	70	FLOOR	Aloud	Green	0	SPOKE	old	m	.	    0.00
4	71	MOUTH	Aloud	Green	0	SPOKE	old	m	.	    0.00
4	72	KNIFE	Aloud	Green	0	SPOKE	old	m	.	    0.00
4	73	MONEY	Silent	Purple	0	SPOKE	old	m	.	    0.00
4	74	RIGHT	Silent	Purple	0	SPOKE	old	m	.	    0.00
4	75	WHILE	Aloud	Green	0	SPOKE	old	m	.	    0.00
4	76	HORSE	Aloud	Green	0	SPOKE	old	m	.	    0.00
4	77	EMPTY	Aloud	Green	0	SPOKE	old	m	.	    0.00
4	78	UNDER	Silent	Purple	0	SPOKE	old	m	.	    0.00
4	79	UNCLE	Aloud	Green	0	SPOKE	old	m	.	    0.00
4	80	DRINK	Aloud	Green	0	SPOKE	old	m	.	    0.00
4	80	DRINK	Aloud	Green	1	LATIN	old	m	m	2520
4	80	DRINK	Aloud	Green	2	EQUAL	new	n	n	1195
4	80	DRINK	Aloud	Green	3	UPPER	old	m	m	766
4	80	DRINK	Aloud	Green	4	ORDER	new	n	n	1801
4	80	DRINK	Aloud	Green	5	WAGON	new	n	n	793
4	80	DRINK	Aloud	Green	6	PRESS	old	m	m	629
4	80	DRINK	Aloud	Green	7	SCORE	new	n	m	700
4	80	DRINK	Aloud	Green	8	TRAIN	new	n	m	657
4	80	DRINK	Aloud	Green	9	TRIAL	new	n	n	698
4	80	DRINK	Aloud	Green	10	POINT	new	n	n	991
4	80	DRINK	Aloud	Green	11	HORSE	old	m	m	754
4	80	DRINK	Aloud	Green	12	PLANE	new	n	n	1956
4	80	DRINK	Aloud	Green	13	LOOSE	old	m	m	983
4	80	DRINK	Aloud	Green	14	FIELD	old	m	m	746
4	80	DRINK	Aloud	Green	15	DROVE	old	m	m	910
4	80	DRINK	Aloud	Green	16	METAL	new	n	n	786
4	80	DRINK	Aloud	Green	17	FRAME	new	n	m	798
4	80	DRINK	Aloud	Green	18	SWEET	old	m	n	632
4	80	DRINK	Aloud	Green	19	HEART	new	n	n	1960
4	80	DRINK	Aloud	Green	20	SHORE	new	n	n	611
4	80	DRINK	Aloud	Green	21	ROUND	old	m	n	1013
4	80	DRINK	Aloud	Green	22	SOUND	new	n	n	790
4	80	DRINK	Aloud	Green	23	TRUTH	new	n	m	672
4	80	DRINK	Aloud	Green	24	TOUCH	new	n	m	1287
4	80	DRINK	Aloud	Green	25	STORE	old	m	m	717
4	80	DRINK	Aloud	Green	26	DOZEN	old	m	m	649
4	80	DRINK	Aloud	Green	27	WOMEN	new	n	n	657
4	80	DRINK	Aloud	Green	28	SMALL	new	n	n	696
4	80	DRINK	Aloud	Green	29	UNCLE	old	m	n	757
4	80	DRINK	Aloud	Green	30	NIGHT	new	n	m	1464
4	80	DRINK	Aloud	Green	31	PEACE	old	m	m	623
4	80	DRINK	Aloud	Green	32	FORCE	old	m	m	737
4	80	DRINK	Aloud	Green	33	PHASE	old	m	m	620
4	80	DRINK	Aloud	Green	34	UNITY	new	n	n	589
4	80	DRINK	Aloud	Green	35	WHEEL	old	m	m	631
4	80	DRINK	Aloud	Green	36	ENEMY	old	m	m	599
4	80	DRINK	Aloud	Green	37	TEETH	new	n	n	697
4	80	DRINK	Aloud	Green	38	MORAL	new	n	n	711
4	80	DRINK	Aloud	Green	39	JUDGE	new	n	n	1428
4	80	DRINK	Aloud	Green	40	SPOKE	old	m	n	812
4	80	DRINK	Aloud	Green	41	MONTH	old	m	n	862
4	80	DRINK	Aloud	Green	42	WHILE	old	m	n	893
4	80	DRINK	Aloud	Green	43	SENSE	old	m	m	595
4	80	DRINK	Aloud	Green	44	SOLID	new	n	m	645
4	80	DRINK	Aloud	Green	45	PHONE	new	n	n	622
4	80	DRINK	Aloud	Green	46	SIGHT	old	m	m	597
4	80	DRINK	Aloud	Green	47	MOTOR	old	m	m	679
4	80	DRINK	Aloud	Green	48	THICK	old	m	n	684
4	80	DRINK	Aloud	Green	49	STAND	old	m	m	963
4	80	DRINK	Aloud	Green	50	MEANS	old	m	n	541
4	80	DRINK	Aloud	Green	51	SHAPE	old	m	m	554
4	80	DRINK	Aloud	Green	52	SHARE	old	m	m	693
4	80	DRINK	Aloud	Green	53	SCENE	old	m	m	683
4	80	DRINK	Aloud	Green	54	DRIVE	old	m	m	1049
4	80	DRINK	Aloud	Green	55	FLESH	old	m	n	624
4	80	DRINK	Aloud	Green	56	LEAVE	old	m	n	1386
4	80	DRINK	Aloud	Green	57	GRASS	old	m	m	571
4	80	DRINK	Aloud	Green	58	RIFLE	new	n	n	693
4	80	DRINK	Aloud	Green	59	FIFTY	new	n	n	1076
4	80	DRINK	Aloud	Green	60	TITLE	old	m	m	729
4	80	DRINK	Aloud	Green	61	STUDY	old	m	n	959
4	80	DRINK	Aloud	Green	62	INNER	new	n	m	546
4	80	DRINK	Aloud	Green	63	THEME	new	n	m	1230
4	80	DRINK	Aloud	Green	64	DREAM	old	m	n	621
4	80	DRINK	Aloud	Green	65	BLOOD	old	m	m	695
4	80	DRINK	Aloud	Green	66	MIGHT	old	m	n	1733
4	80	DRINK	Aloud	Green	67	OTHER	new	n	n	993
4	80	DRINK	Aloud	Green	68	EARTH	old	m	m	996
4	80	DRINK	Aloud	Green	69	WORLD	old	m	m	605
4	80	DRINK	Aloud	Green	70	DRINK	old	m	n	871
4	80	DRINK	Aloud	Green	71	TRUST	old	m	m	1142
4	80	DRINK	Aloud	Green	72	PLANT	new	n	m	810
4	80	DRINK	Aloud	Green	73	GROUP	new	n	n	667
4	80	DRINK	Aloud	Green	74	SHARP	old	m	n	2106
4	80	DRINK	Aloud	Green	75	SPEED	old	m	m	686
4	80	DRINK	Aloud	Green	76	MODEL	new	n	m	838
4	80	DRINK	Aloud	Green	77	TODAY	old	m	n	597
4	80	DRINK	Aloud	Green	78	GROSS	new	n	n	2183
4	80	DRINK	Aloud	Green	79	INDEX	old	m	m	1337
4	80	DRINK	Aloud	Green	80	TABLE	old	m	n	838
4	80	DRINK	Aloud	Green	81	OFFER	new	n	m	613
4	80	DRINK	Aloud	Green	82	RADIO	new	n	n	664
4	80	DRINK	Aloud	Green	83	RIVER	old	m	m	654
4	80	DRINK	Aloud	Green	84	IMAGE	new	n	m	2212
4	80	DRINK	Aloud	Green	85	STORY	old	m	m	933
4	80	DRINK	Aloud	Green	86	THIRD	old	m	n	706
4	80	DRINK	Aloud	Green	87	TOTAL	old	m	m	584
4	80	DRINK	Aloud	Green	88	REACH	old	m	m	681
4	80	DRINK	Aloud	Green	89	KNIFE	old	m	m	2375
4	80	DRINK	Aloud	Green	90	SPITE	new	n	n	898
4	80	DRINK	Aloud	Green	91	EVENT	new	n	m	1264
4	80	DRINK	Aloud	Green	92	MINOR	new	n	n	655
4	80	DRINK	Aloud	Green	93	VISIT	new	n	n	534
4	80	DRINK	Aloud	Green	94	MAJOR	new	n	n	539
4	80	DRINK	Aloud	Green	95	YOUTH	new	n	m	775
4	80	DRINK	Aloud	Green	96	LEVEL	old	m	m	633
4	80	DRINK	Aloud	Green	97	MONEY	old	m	m	1202
4	80	DRINK	Aloud	Green	98	WATCH	old	m	m	635
4	80	DRINK	Aloud	Green	99	PRICE	old	m	m	1275
4	80	DRINK	Aloud	Green	100	WHITE	old	m	m	930
4	80	DRINK	Aloud	Green	101	ISSUE	new	n	n	719
4	80	DRINK	Aloud	Green	102	SCALE	old	m	m	811
4	80	DRINK	Aloud	Green	103	VALUE	new	n	n	1773
4	80	DRINK	Aloud	Green	104	WATER	new	n	n	890
4	80	DRINK	Aloud	Green	105	RIGHT	old	m	m	1905
4	80	DRINK	Aloud	Green	106	SMILE	new	n	n	1598
4	80	DRINK	Aloud	Green	107	EMPTY	old	m	n	743
4	80	DRINK	Aloud	Green	108	HOTEL	old	m	m	981
4	80	DRINK	Aloud	Green	109	GREEN	new	n	n	1359
4	80	DRINK	Aloud	Green	110	HOUSE	new	n	n	561
4	80	DRINK	Aloud	Green	111	NOVEL	new	n	m	925
4	80	DRINK	Aloud	Green	112	TASTE	old	m	m	1568
4	80	DRINK	Aloud	Green	113	STILL	old	m	m	612
4	80	DRINK	Aloud	Green	114	TRADE	new	n	m	1453
4	80	DRINK	Aloud	Green	115	GLASS	new	n	m	603
4	80	DRINK	Aloud	Green	116	NORTH	new	n	n	684
4	80	DRINK	Aloud	Green	117	SHORT	new	n	n	660
4	80	DRINK	Aloud	Green	118	START	old	m	n	1323
4	80	DRINK	Aloud	Green	119	VOICE	new	n	n	968
4	80	DRINK	Aloud	Green	120	STATE	new	n	n	858
4	80	DRINK	Aloud	Green	121	EIGHT	new	n	n	1049
4	80	DRINK	Aloud	Green	122	QUICK	new	n	n	713
4	80	DRINK	Aloud	Green	123	SLEEP	new	n	m	607
4	80	DRINK	Aloud	Green	124	WOMAN	new	n	n	3208
4	80	DRINK	Aloud	Green	125	UNDER	old	m	n	888
4	80	DRINK	Aloud	Green	126	TRUCK	old	m	m	2014
4	80	DRINK	Aloud	Green	127	RANGE	old	m	n	1031
4	80	DRINK	Aloud	Green	128	EXTRA	new	n	n	632
4	80	DRINK	Aloud	Green	129	PIECE	old	m	m	615
4	80	DRINK	Aloud	Green	130	MARCH	old	m	m	1073
4	80	DRINK	Aloud	Green	131	STYLE	old	m	n	840
4	80	DRINK	Aloud	Green	132	DRESS	new	n	m	896
4	80	DRINK	Aloud	Green	133	SMITH	old	m	n	1102
4	80	DRINK	Aloud	Green	134	LOUIS	new	n	n	522
4	80	DRINK	Aloud	Green	135	STAFF	old	m	m	758
4	80	DRINK	Aloud	Green	136	MUSIC	old	m	n	811
4	80	DRINK	Aloud	Green	137	LEAST	new	n	m	900
4	80	DRINK	Aloud	Green	138	SEVEN	new	n	n	745
4	80	DRINK	Aloud	Green	139	WRONG	old	m	n	811
4	80	DRINK	Aloud	Green	140	FIGHT	old	m	n	1270
4	80	DRINK	Aloud	Green	141	GUESS	new	n	n	892
4	80	DRINK	Aloud	Green	142	MOUTH	old	m	m	938
4	80	DRINK	Aloud	Green	143	FLOOR	old	m	n	782
4	80	DRINK	Aloud	Green	144	GREEK	new	n	n	712
4	80	DRINK	Aloud	Green	145	LEWIS	new	n	n	702
4	80	DRINK	Aloud	Green	146	STAGE	old	m	m	978
4	80	DRINK	Aloud	Green	147	PAPER	new	n	m	901
4	80	DRINK	Aloud	Green	148	SOUTH	new	n	m	882
4	80	DRINK	Aloud	Green	149	LOCAL	new	n	n	898
4	80	DRINK	Aloud	Green	150	THREE	new	n	m	823
4	80	DRINK	Aloud	Green	151	PARTY	new	n	n	592
4	80	DRINK	Aloud	Green	152	FRONT	new	n	n	698
4	80	DRINK	Aloud	Green	153	STOCK	old	m	m	823
4	80	DRINK	Aloud	Green	154	QUIET	new	n	n	641
4	80	DRINK	Aloud	Green	155	SERVE	new	n	m	1105
4	80	DRINK	Aloud	Green	156	STONE	new	n	n	662
4	80	DRINK	Aloud	Green	157	SPACE	new	n	m	1684
4	80	DRINK	Aloud	Green	158	THING	new	n	n	987
4	80	DRINK	Aloud	Green	159	LIGHT	new	n	m	1902
4	80	DRINK	Aloud	Green	160	IDEAL	new	n	n	747
