TRIAL_SESSION	TRIAL_INDEX_ENCODING	TRIAL_WORD_ENCODING	TRIAL_CONDITION_ENCODING	TRIAL_COLOUR_ENCODING	TRIAL_INDEX_RECOG	wordrecog_1	condition_1	correctanswer_1	KEYPRESS_RECOG	RT_RECOG
4	1	PRICE	Silent	Purple	0	SPOKE	old	m	.	    0.00
4	2	SCENE	Aloud	Green	0	SPOKE	old	m	.	    0.00
4	3	SHAPE	Aloud	Green	0	SPOKE	old	m	.	    0.00
4	4	SENSE	Aloud	Green	0	SPOKE	old	m	.	    0.00
4	5	WORLD	Aloud	Green	0	SPOKE	old	m	.	    0.00
4	6	RIVER	Silent	Purple	0	SPOKE	old	m	.	    0.00
4	7	UPPER	Aloud	Green	0	SPOKE	old	m	.	    0.00
4	8	TOTAL	Aloud	Green	0	SPOKE	old	m	.	    0.00
4	9	EARTH	Silent	Purple	0	SPOKE	old	m	.	    0.00
4	10	MOTOR	Aloud	Green	0	SPOKE	old	m	.	    0.00
4	11	STILL	Silent	Purple	0	SPOKE	old	m	.	    0.00
4	12	THIRD	Silent	Purple	0	SPOKE	old	m	.	    0.00
4	13	THICK	Silent	Purple	0	SPOKE	old	m	.	    0.00
4	14	SHARP	Aloud	Green	0	SPOKE	old	m	.	    0.00
4	15	STAGE	Aloud	Green	0	SPOKE	old	m	.	    0.00
4	16	STAFF	Aloud	Green	0	SPOKE	old	m	.	    0.00
4	17	WATCH	Aloud	Green	0	SPOKE	old	m	.	    0.00
4	18	DRINK	Aloud	Green	0	SPOKE	old	m	.	    0.00
4	19	MONEY	Aloud	Green	0	SPOKE	old	m	.	    0.00
4	20	STORE	Aloud	Green	0	SPOKE	old	m	.	    0.00
4	21	DOZEN	Silent	Purple	0	SPOKE	old	m	.	    0.00
4	22	STUDY	Aloud	Green	0	SPOKE	old	m	.	    0.00
4	23	FORCE	Silent	Purple	0	SPOKE	old	m	.	    0.00
4	24	HOTEL	Aloud	Green	0	SPOKE	old	m	.	    0.00
4	25	TASTE	Silent	Purple	0	SPOKE	old	m	.	    0.00
4	26	ROUND	Silent	Purple	0	SPOKE	old	m	.	    0.00
4	27	FLOOR	Aloud	Green	0	SPOKE	old	m	.	    0.00
4	28	MARCH	Aloud	Green	0	SPOKE	old	m	.	    0.00
4	29	REACH	Silent	Purple	0	SPOKE	old	m	.	    0.00
4	30	PHASE	Aloud	Green	0	SPOKE	old	m	.	    0.00
4	31	DREAM	Aloud	Green	0	SPOKE	old	m	.	    0.00
4	32	RANGE	Aloud	Green	0	SPOKE	old	m	.	    0.00
4	33	INDEX	Aloud	Green	0	SPOKE	old	m	.	    0.00
4	34	ENEMY	Silent	Purple	0	SPOKE	old	m	.	    0.00
4	35	TITLE	Silent	Purple	0	SPOKE	old	m	.	    0.00
4	36	FIELD	Silent	Purple	0	SPOKE	old	m	.	    0.00
4	37	PIECE	Silent	Purple	0	SPOKE	old	m	.	    0.00
4	38	SPOKE	Silent	Purple	0	SPOKE	old	m	.	    0.00
4	39	TRUCK	Silent	Purple	0	SPOKE	old	m	.	    0.00
4	40	LEAVE	Silent	Purple	0	SPOKE	old	m	.	    0.00
4	41	MONTH	Aloud	Green	0	SPOKE	old	m	.	    0.00
4	42	BLOOD	Silent	Purple	0	SPOKE	old	m	.	    0.00
4	43	SHARE	Aloud	Green	0	SPOKE	old	m	.	    0.00
4	44	DROVE	Aloud	Green	0	SPOKE	old	m	.	    0.00
4	45	SCALE	Silent	Purple	0	SPOKE	old	m	.	    0.00
4	46	UNCLE	Aloud	Green	0	SPOKE	old	m	.	    0.00
4	47	GRASS	Aloud	Green	0	SPOKE	old	m	.	    0.00
4	48	STAND	Aloud	Green	0	SPOKE	old	m	.	    0.00
4	49	EMPTY	Silent	Purple	0	SPOKE	old	m	.	    0.00
4	50	MUSIC	Aloud	Green	0	SPOKE	old	m	.	    0.00
4	51	MOUTH	Silent	Purple	0	SPOKE	old	m	.	    0.00
4	52	KNIFE	Aloud	Green	0	SPOKE	old	m	.	    0.00
4	53	HORSE	Silent	Purple	0	SPOKE	old	m	.	    0.00
4	54	FLESH	Silent	Purple	0	SPOKE	old	m	.	    0.00
4	55	PRESS	Silent	Purple	0	SPOKE	old	m	.	    0.00
4	56	PEACE	Silent	Purple	0	SPOKE	old	m	.	    0.00
4	57	SIGHT	Silent	Purple	0	SPOKE	old	m	.	    0.00
4	58	MEANS	Aloud	Green	0	SPOKE	old	m	.	    0.00
4	59	WHEEL	Silent	Purple	0	SPOKE	old	m	.	    0.00
4	60	LOOSE	Silent	Purple	0	SPOKE	old	m	.	    0.00
4	61	DRIVE	Silent	Purple	0	SPOKE	old	m	.	    0.00
4	62	MIGHT	Silent	Purple	0	SPOKE	old	m	.	    0.00
4	63	UNDER	Silent	Purple	0	SPOKE	old	m	.	    0.00
4	64	LATIN	Aloud	Green	0	SPOKE	old	m	.	    0.00
4	65	SMITH	Silent	Purple	0	SPOKE	old	m	.	    0.00
4	66	WHITE	Aloud	Green	0	SPOKE	old	m	.	    0.00
4	67	STYLE	Aloud	Green	0	SPOKE	old	m	.	    0.00
4	68	FIGHT	Aloud	Green	0	SPOKE	old	m	.	    0.00
4	69	LEVEL	Silent	Purple	0	SPOKE	old	m	.	    0.00
4	70	TODAY	Silent	Purple	0	SPOKE	old	m	.	    0.00
4	71	TABLE	Silent	Purple	0	SPOKE	old	m	.	    0.00
4	72	TRUST	Aloud	Green	0	SPOKE	old	m	.	    0.00
4	73	SPEED	Silent	Purple	0	SPOKE	old	m	.	    0.00
4	74	SWEET	Silent	Purple	0	SPOKE	old	m	.	    0.00
4	75	STOCK	Aloud	Green	0	SPOKE	old	m	.	    0.00
4	76	WHILE	Aloud	Green	0	SPOKE	old	m	.	    0.00
4	77	RIGHT	Aloud	Green	0	SPOKE	old	m	.	    0.00
4	78	WRONG	Silent	Purple	0	SPOKE	old	m	.	    0.00
4	79	START	Silent	Purple	0	SPOKE	old	m	.	    0.00
4	80	STORY	Aloud	Green	0	SPOKE	old	m	.	    0.00
4	80	STORY	Aloud	Green	1	SHARE	old	m	m	2327
4	80	STORY	Aloud	Green	2	QUIET	new	n	n	2316
4	80	STORY	Aloud	Green	3	WHEEL	old	m	m	985
4	80	STORY	Aloud	Green	4	RIGHT	old	m	m	595
4	80	STORY	Aloud	Green	5	GREEN	new	n	n	2254
4	80	STORY	Aloud	Green	6	SPOKE	old	m	n	924
4	80	STORY	Aloud	Green	7	WOMEN	new	n	n	706
4	80	STORY	Aloud	Green	8	OFFER	new	n	n	664
4	80	STORY	Aloud	Green	9	STILL	old	m	m	772
4	80	STORY	Aloud	Green	10	TRUST	old	m	m	552
4	80	STORY	Aloud	Green	11	HEART	new	n	n	1387
4	80	STORY	Aloud	Green	12	LEWIS	new	n	n	678
4	80	STORY	Aloud	Green	13	FRAME	new	n	n	725
4	80	STORY	Aloud	Green	14	FIGHT	old	m	n	672
4	80	STORY	Aloud	Green	15	WHILE	old	m	m	575
4	80	STORY	Aloud	Green	16	DRINK	old	m	n	1098
4	80	STORY	Aloud	Green	17	WATER	new	n	n	910
4	80	STORY	Aloud	Green	18	MONEY	old	m	m	540
4	80	STORY	Aloud	Green	19	LOOSE	old	m	m	673
4	80	STORY	Aloud	Green	20	ROUND	old	m	n	742
4	80	STORY	Aloud	Green	21	VISIT	new	n	n	787
4	80	STORY	Aloud	Green	22	IMAGE	new	n	n	973
4	80	STORY	Aloud	Green	23	SHORT	new	n	m	673
4	80	STORY	Aloud	Green	24	SPACE	new	n	n	831
4	80	STORY	Aloud	Green	25	GROUP	new	n	n	575
4	80	STORY	Aloud	Green	26	LEAST	new	n	n	666
4	80	STORY	Aloud	Green	27	SENSE	old	m	n	1737
4	80	STORY	Aloud	Green	28	INNER	new	n	n	693
4	80	STORY	Aloud	Green	29	SWEET	old	m	m	1123
4	80	STORY	Aloud	Green	30	SOUND	new	n	n	952
4	80	STORY	Aloud	Green	31	SOUTH	new	n	n	659
4	80	STORY	Aloud	Green	32	EQUAL	new	n	n	577
4	80	STORY	Aloud	Green	33	THING	new	n	n	1092
4	80	STORY	Aloud	Green	34	TRUTH	new	n	m	1019
4	80	STORY	Aloud	Green	35	ORDER	new	n	n	860
4	80	STORY	Aloud	Green	36	SHAPE	old	m	m	643
4	80	STORY	Aloud	Green	37	STYLE	old	m	n	715
4	80	STORY	Aloud	Green	38	HOTEL	old	m	m	1143
4	80	STORY	Aloud	Green	39	STAGE	old	m	n	811
4	80	STORY	Aloud	Green	40	STATE	new	n	n	845
4	80	STORY	Aloud	Green	41	STAFF	old	m	n	675
4	80	STORY	Aloud	Green	42	FLOOR	old	m	m	970
4	80	STORY	Aloud	Green	43	SEVEN	new	n	n	613
4	80	STORY	Aloud	Green	44	UPPER	old	m	m	742
4	80	STORY	Aloud	Green	45	STUDY	old	m	m	1482
4	80	STORY	Aloud	Green	46	SIGHT	old	m	n	1609
4	80	STORY	Aloud	Green	47	EMPTY	old	m	n	761
4	80	STORY	Aloud	Green	48	RADIO	new	n	n	517
4	80	STORY	Aloud	Green	49	PARTY	new	n	n	601
4	80	STORY	Aloud	Green	50	WRONG	old	m	m	652
4	80	STORY	Aloud	Green	51	MOTOR	old	m	m	731
4	80	STORY	Aloud	Green	52	TRIAL	new	n	n	711
4	80	STORY	Aloud	Green	53	RANGE	old	m	m	589
4	80	STORY	Aloud	Green	54	STONE	new	n	n	631
4	80	STORY	Aloud	Green	55	WOMAN	new	n	n	742
4	80	STORY	Aloud	Green	56	SPITE	new	n	n	827
4	80	STORY	Aloud	Green	57	ENEMY	old	m	n	555
4	80	STORY	Aloud	Green	58	NIGHT	new	n	m	2487
4	80	STORY	Aloud	Green	59	SMITH	old	m	m	1269
4	80	STORY	Aloud	Green	60	WHITE	old	m	n	716
4	80	STORY	Aloud	Green	61	SLEEP	new	n	n	672
4	80	STORY	Aloud	Green	62	PAPER	new	n	n	840
4	80	STORY	Aloud	Green	63	TOTAL	old	m	m	679
4	80	STORY	Aloud	Green	64	JUDGE	new	n	m	710
4	80	STORY	Aloud	Green	65	THIRD	old	m	n	788
4	80	STORY	Aloud	Green	66	THREE	new	n	n	1013
4	80	STORY	Aloud	Green	67	SHARP	old	m	m	1223
4	80	STORY	Aloud	Green	68	LEVEL	old	m	m	910
4	80	STORY	Aloud	Green	69	EXTRA	new	n	n	605
4	80	STORY	Aloud	Green	70	DOZEN	old	m	n	541
4	80	STORY	Aloud	Green	71	IDEAL	new	n	n	586
4	80	STORY	Aloud	Green	72	KNIFE	old	m	m	788
4	80	STORY	Aloud	Green	73	DRESS	new	n	n	798
4	80	STORY	Aloud	Green	74	MARCH	old	m	n	1070
4	80	STORY	Aloud	Green	75	UNCLE	old	m	m	933
4	80	STORY	Aloud	Green	76	MAJOR	new	n	n	714
4	80	STORY	Aloud	Green	77	PRESS	old	m	m	854
4	80	STORY	Aloud	Green	78	ISSUE	new	n	n	693
4	80	STORY	Aloud	Green	79	TODAY	old	m	n	676
4	80	STORY	Aloud	Green	80	SOLID	new	n	n	634
4	80	STORY	Aloud	Green	81	TEETH	new	n	m	1140
4	80	STORY	Aloud	Green	82	GRASS	old	m	m	815
4	80	STORY	Aloud	Green	83	MEANS	old	m	n	608
4	80	STORY	Aloud	Green	84	RIFLE	new	n	n	921
4	80	STORY	Aloud	Green	85	DROVE	old	m	n	765
4	80	STORY	Aloud	Green	86	FIFTY	new	n	n	681
4	80	STORY	Aloud	Green	87	UNDER	old	m	m	735
4	80	STORY	Aloud	Green	88	START	old	m	n	5459
4	80	STORY	Aloud	Green	89	TOUCH	new	n	n	1114
4	80	STORY	Aloud	Green	90	PHONE	new	n	n	1166
4	80	STORY	Aloud	Green	91	MUSIC	old	m	n	707
4	80	STORY	Aloud	Green	92	PLANT	new	n	n	2543
4	80	STORY	Aloud	Green	93	MONTH	old	m	m	2227
4	80	STORY	Aloud	Green	94	TRUCK	old	m	m	1228
4	80	STORY	Aloud	Green	95	VALUE	new	n	n	772
4	80	STORY	Aloud	Green	96	LATIN	old	m	m	679
4	80	STORY	Aloud	Green	97	SHORE	new	n	n	853
4	80	STORY	Aloud	Green	98	SCALE	old	m	m	781
4	80	STORY	Aloud	Green	99	REACH	old	m	n	737
4	80	STORY	Aloud	Green	100	MODEL	new	n	n	805
4	80	STORY	Aloud	Green	101	DREAM	old	m	n	822
4	80	STORY	Aloud	Green	102	MOUTH	old	m	m	909
4	80	STORY	Aloud	Green	103	STAND	old	m	n	939
4	80	STORY	Aloud	Green	104	LIGHT	new	n	n	1223
4	80	STORY	Aloud	Green	105	TABLE	old	m	m	721
4	80	STORY	Aloud	Green	106	FRONT	new	n	n	828
4	80	STORY	Aloud	Green	107	DRIVE	old	m	m	652
4	80	STORY	Aloud	Green	108	EARTH	old	m	m	844
4	80	STORY	Aloud	Green	109	WATCH	old	m	n	644
4	80	STORY	Aloud	Green	110	MIGHT	old	m	n	2756
4	80	STORY	Aloud	Green	111	LOCAL	new	n	n	807
4	80	STORY	Aloud	Green	112	METAL	new	n	n	2424
4	80	STORY	Aloud	Green	113	OTHER	new	n	n	689
4	80	STORY	Aloud	Green	114	GREEK	new	n	n	774
4	80	STORY	Aloud	Green	115	WORLD	old	m	n	609
4	80	STORY	Aloud	Green	116	GUESS	new	n	n	675
4	80	STORY	Aloud	Green	117	EVENT	new	n	n	674
4	80	STORY	Aloud	Green	118	WAGON	new	n	n	593
4	80	STORY	Aloud	Green	119	QUICK	new	n	n	674
4	80	STORY	Aloud	Green	120	PEACE	old	m	n	722
4	80	STORY	Aloud	Green	121	LOUIS	new	n	n	902
4	80	STORY	Aloud	Green	122	INDEX	old	m	m	596
4	80	STORY	Aloud	Green	123	STORY	old	m	n	1988
4	80	STORY	Aloud	Green	124	TRADE	new	n	n	655
4	80	STORY	Aloud	Green	125	YOUTH	new	n	n	734
4	80	STORY	Aloud	Green	126	MINOR	new	n	n	803
4	80	STORY	Aloud	Green	127	GROSS	new	n	n	812
4	80	STORY	Aloud	Green	128	EIGHT	new	n	n	805
4	80	STORY	Aloud	Green	129	VOICE	new	n	n	782
4	80	STORY	Aloud	Green	130	PIECE	old	m	n	848
4	80	STORY	Aloud	Green	131	PLANE	new	n	n	752
4	80	STORY	Aloud	Green	132	RIVER	old	m	m	1179
4	80	STORY	Aloud	Green	133	FORCE	old	m	n	660
4	80	STORY	Aloud	Green	134	THEME	new	n	n	596
4	80	STORY	Aloud	Green	135	SERVE	new	n	n	727
4	80	STORY	Aloud	Green	136	SPEED	old	m	m	3419
4	80	STORY	Aloud	Green	137	SCORE	new	n	n	1077
4	80	STORY	Aloud	Green	138	BLOOD	old	m	n	4003
4	80	STORY	Aloud	Green	139	SCENE	old	m	m	692
4	80	STORY	Aloud	Green	140	SMILE	new	n	n	956
4	80	STORY	Aloud	Green	141	THICK	old	m	m	637
4	80	STORY	Aloud	Green	142	PRICE	old	m	m	1030
4	80	STORY	Aloud	Green	143	POINT	new	n	n	3903
4	80	STORY	Aloud	Green	144	HOUSE	new	n	n	980
4	80	STORY	Aloud	Green	145	FIELD	old	m	m	822
4	80	STORY	Aloud	Green	146	STORE	old	m	n	3959
4	80	STORY	Aloud	Green	147	TRAIN	new	n	m	3226
4	80	STORY	Aloud	Green	148	HORSE	old	m	n	659
4	80	STORY	Aloud	Green	149	SMALL	new	n	n	2738
4	80	STORY	Aloud	Green	150	NOVEL	new	n	n	934
4	80	STORY	Aloud	Green	151	PHASE	old	m	n	2265
4	80	STORY	Aloud	Green	152	NORTH	new	n	n	4169
4	80	STORY	Aloud	Green	153	TASTE	old	m	n	1067
4	80	STORY	Aloud	Green	154	TITLE	old	m	m	1330
4	80	STORY	Aloud	Green	155	STOCK	old	m	n	622
4	80	STORY	Aloud	Green	156	GLASS	new	n	n	831
4	80	STORY	Aloud	Green	157	FLESH	old	m	m	816
4	80	STORY	Aloud	Green	158	LEAVE	old	m	n	1825
4	80	STORY	Aloud	Green	159	MORAL	new	n	n	856
4	80	STORY	Aloud	Green	160	UNITY	new	n	n	856
