TRIAL_SESSION	TRIAL_INDEX_ENCODING	TRIAL_WORD_ENCODING	TRIAL_CONDITION_ENCODING	TRIAL_COLOUR_ENCODING	TRIAL_INDEX_RECOG	wordrecog_1	condition_1	correctanswer_1	KEYPRESS_RECOG	RT_RECOG
2	1	THEME	Aloud	Green	0	STATE	old	m	.	    0.00
2	2	OTHER	Aloud	Green	0	STATE	old	m	.	    0.00
2	3	TEETH	Silent	Purple	0	STATE	old	m	.	    0.00
2	4	GREEK	Silent	Purple	0	STATE	old	m	.	    0.00
2	5	WOMAN	Silent	Purple	0	STATE	old	m	.	    0.00
2	6	TRAIN	Aloud	Green	0	STATE	old	m	.	    0.00
2	7	QUICK	Aloud	Green	0	STATE	old	m	.	    0.00
2	8	RIFLE	Silent	Purple	0	STATE	old	m	.	    0.00
2	9	TRADE	Aloud	Green	0	STATE	old	m	.	    0.00
2	10	WATER	Aloud	Green	0	STATE	old	m	.	    0.00
2	11	SOLID	Silent	Purple	0	STATE	old	m	.	    0.00
2	12	THING	Aloud	Green	0	STATE	old	m	.	    0.00
2	13	SERVE	Silent	Purple	0	STATE	old	m	.	    0.00
2	14	LOUIS	Aloud	Green	0	STATE	old	m	.	    0.00
2	15	RADIO	Aloud	Green	0	STATE	old	m	.	    0.00
2	16	PAPER	Aloud	Green	0	STATE	old	m	.	    0.00
2	17	DRESS	Aloud	Green	0	STATE	old	m	.	    0.00
2	18	WOMEN	Silent	Purple	0	STATE	old	m	.	    0.00
2	19	EIGHT	Aloud	Green	0	STATE	old	m	.	    0.00
2	20	EVENT	Silent	Purple	0	STATE	old	m	.	    0.00
2	21	GROUP	Aloud	Green	0	STATE	old	m	.	    0.00
2	22	SPACE	Aloud	Green	0	STATE	old	m	.	    0.00
2	23	JUDGE	Silent	Purple	0	STATE	old	m	.	    0.00
2	24	SMALL	Silent	Purple	0	STATE	old	m	.	    0.00
2	25	VALUE	Aloud	Green	0	STATE	old	m	.	    0.00
2	26	MINOR	Silent	Purple	0	STATE	old	m	.	    0.00
2	27	SEVEN	Aloud	Green	0	STATE	old	m	.	    0.00
2	28	LIGHT	Aloud	Green	0	STATE	old	m	.	    0.00
2	29	EQUAL	Silent	Purple	0	STATE	old	m	.	    0.00
2	30	LOCAL	Silent	Purple	0	STATE	old	m	.	    0.00
2	31	MODEL	Aloud	Green	0	STATE	old	m	.	    0.00
2	32	GROSS	Aloud	Green	0	STATE	old	m	.	    0.00
2	33	SLEEP	Silent	Purple	0	STATE	old	m	.	    0.00
2	34	HOUSE	Silent	Purple	0	STATE	old	m	.	    0.00
2	35	PHONE	Silent	Purple	0	STATE	old	m	.	    0.00
2	36	WAGON	Silent	Purple	0	STATE	old	m	.	    0.00
2	37	FRAME	Silent	Purple	0	STATE	old	m	.	    0.00
2	38	NORTH	Aloud	Green	0	STATE	old	m	.	    0.00
2	39	GREEN	Silent	Purple	0	STATE	old	m	.	    0.00
2	40	PLANT	Aloud	Green	0	STATE	old	m	.	    0.00
2	41	SCORE	Aloud	Green	0	STATE	old	m	.	    0.00
2	42	STONE	Aloud	Green	0	STATE	old	m	.	    0.00
2	43	VOICE	Silent	Purple	0	STATE	old	m	.	    0.00
2	44	IMAGE	Silent	Purple	0	STATE	old	m	.	    0.00
2	45	MORAL	Aloud	Green	0	STATE	old	m	.	    0.00
2	46	YOUTH	Aloud	Green	0	STATE	old	m	.	    0.00
2	47	STATE	Silent	Purple	0	STATE	old	m	.	    0.00
2	48	SOUTH	Silent	Purple	0	STATE	old	m	.	    0.00
2	49	NIGHT	Silent	Purple	0	STATE	old	m	.	    0.00
2	50	ISSUE	Aloud	Green	0	STATE	old	m	.	    0.00
2	51	MAJOR	Aloud	Green	0	STATE	old	m	.	    0.00
2	52	SHORT	Aloud	Green	0	STATE	old	m	.	    0.00
2	53	PLANE	Aloud	Green	0	STATE	old	m	.	    0.00
2	54	VISIT	Aloud	Green	0	STATE	old	m	.	    0.00
2	55	HEART	Aloud	Green	0	STATE	old	m	.	    0.00
2	56	SHORE	Silent	Purple	0	STATE	old	m	.	    0.00
2	57	TRIAL	Silent	Purple	0	STATE	old	m	.	    0.00
2	58	GLASS	Silent	Purple	0	STATE	old	m	.	    0.00
2	59	LEWIS	Silent	Purple	0	STATE	old	m	.	    0.00
2	60	INNER	Aloud	Green	0	STATE	old	m	.	    0.00
2	61	FIFTY	Aloud	Green	0	STATE	old	m	.	    0.00
2	62	LEAST	Silent	Purple	0	STATE	old	m	.	    0.00
2	63	EXTRA	Silent	Purple	0	STATE	old	m	.	    0.00
2	64	OFFER	Silent	Purple	0	STATE	old	m	.	    0.00
2	65	PARTY	Silent	Purple	0	STATE	old	m	.	    0.00
2	66	FRONT	Aloud	Green	0	STATE	old	m	.	    0.00
2	67	TRUTH	Silent	Purple	0	STATE	old	m	.	    0.00
2	68	TOUCH	Silent	Purple	0	STATE	old	m	.	    0.00
2	69	THREE	Aloud	Green	0	STATE	old	m	.	    0.00
2	70	POINT	Aloud	Green	0	STATE	old	m	.	    0.00
2	71	SMILE	Silent	Purple	0	STATE	old	m	.	    0.00
2	72	SOUND	Aloud	Green	0	STATE	old	m	.	    0.00
2	73	IDEAL	Aloud	Green	0	STATE	old	m	.	    0.00
2	74	SPITE	Aloud	Green	0	STATE	old	m	.	    0.00
2	75	METAL	Silent	Purple	0	STATE	old	m	.	    0.00
2	76	QUIET	Silent	Purple	0	STATE	old	m	.	    0.00
2	77	GUESS	Silent	Purple	0	STATE	old	m	.	    0.00
2	78	UNITY	Aloud	Green	0	STATE	old	m	.	    0.00
2	79	NOVEL	Silent	Purple	0	STATE	old	m	.	    0.00
2	80	ORDER	Silent	Purple	0	STATE	old	m	.	    0.00
2	80	ORDER	Silent	Purple	1	DROVE	new	n	n	1490
2	80	ORDER	Silent	Purple	2	FRAME	old	m	m	1945
2	80	ORDER	Silent	Purple	3	EQUAL	old	m	m	1820
2	80	ORDER	Silent	Purple	4	UPPER	new	n	m	2734
2	80	ORDER	Silent	Purple	5	JUDGE	old	m	m	2737
2	80	ORDER	Silent	Purple	6	SOUND	old	m	m	1589
2	80	ORDER	Silent	Purple	7	MOUTH	new	n	n	1208
2	80	ORDER	Silent	Purple	8	DRESS	old	m	m	920
2	80	ORDER	Silent	Purple	9	RIFLE	old	m	m	925
2	80	ORDER	Silent	Purple	10	SCORE	old	m	m	1443
2	80	ORDER	Silent	Purple	11	TODAY	new	n	n	1970
2	80	ORDER	Silent	Purple	12	MONTH	new	n	n	1190
2	80	ORDER	Silent	Purple	13	SPITE	old	m	m	952
2	80	ORDER	Silent	Purple	14	WHILE	new	n	m	1266
2	80	ORDER	Silent	Purple	15	NIGHT	old	m	m	906
2	80	ORDER	Silent	Purple	16	TRUTH	old	m	m	1198
2	80	ORDER	Silent	Purple	17	UNDER	new	n	m	2552
2	80	ORDER	Silent	Purple	18	RIVER	new	n	n	1972
2	80	ORDER	Silent	Purple	19	TRAIN	old	m	n	3167
2	80	ORDER	Silent	Purple	20	FORCE	new	n	n	1323
2	80	ORDER	Silent	Purple	21	INDEX	new	n	n	1550
2	80	ORDER	Silent	Purple	22	MINOR	old	m	m	793
2	80	ORDER	Silent	Purple	23	FIELD	new	n	m	1252
2	80	ORDER	Silent	Purple	24	STILL	new	n	n	2330
2	80	ORDER	Silent	Purple	25	EARTH	new	n	n	2576
2	80	ORDER	Silent	Purple	26	STOCK	new	n	n	1026
2	80	ORDER	Silent	Purple	27	MEANS	new	n	n	1211
2	80	ORDER	Silent	Purple	28	TEETH	old	m	m	860
2	80	ORDER	Silent	Purple	29	KNIFE	new	n	n	3652
2	80	ORDER	Silent	Purple	30	SPOKE	new	n	m	4156
2	80	ORDER	Silent	Purple	31	VALUE	old	m	m	710
2	80	ORDER	Silent	Purple	32	GREEN	old	m	m	811
2	80	ORDER	Silent	Purple	33	BLOOD	new	n	n	2142
2	80	ORDER	Silent	Purple	34	GROUP	old	m	n	1392
2	80	ORDER	Silent	Purple	35	RADIO	old	m	m	748
2	80	ORDER	Silent	Purple	36	SHARP	new	n	n	808
2	80	ORDER	Silent	Purple	37	GLASS	old	m	n	2449
2	80	ORDER	Silent	Purple	38	UNITY	old	m	m	1063
2	80	ORDER	Silent	Purple	39	HORSE	new	n	n	1254
2	80	ORDER	Silent	Purple	40	DOZEN	new	n	n	998
2	80	ORDER	Silent	Purple	41	FRONT	old	m	m	1090
2	80	ORDER	Silent	Purple	42	WAGON	old	m	m	783
2	80	ORDER	Silent	Purple	43	TRADE	old	m	m	1137
2	80	ORDER	Silent	Purple	44	RANGE	new	n	n	1301
2	80	ORDER	Silent	Purple	45	SHAPE	new	n	n	1018
2	80	ORDER	Silent	Purple	46	SPACE	old	m	m	1395
2	80	ORDER	Silent	Purple	47	SPEED	new	n	n	1301
2	80	ORDER	Silent	Purple	48	PRESS	new	n	n	1595
2	80	ORDER	Silent	Purple	49	LOOSE	new	n	n	1676
2	80	ORDER	Silent	Purple	50	SOLID	old	m	n	2100
2	80	ORDER	Silent	Purple	51	MIGHT	new	n	n	2913
2	80	ORDER	Silent	Purple	52	EMPTY	new	n	m	1182
2	80	ORDER	Silent	Purple	53	SMALL	old	m	n	1136
2	80	ORDER	Silent	Purple	54	QUIET	old	m	n	1156
2	80	ORDER	Silent	Purple	55	FIFTY	old	m	n	1480
2	80	ORDER	Silent	Purple	56	MUSIC	new	n	n	1254
2	80	ORDER	Silent	Purple	57	THIRD	new	n	n	1516
2	80	ORDER	Silent	Purple	58	RIGHT	new	n	m	1963
2	80	ORDER	Silent	Purple	59	HOTEL	new	n	n	1013
2	80	ORDER	Silent	Purple	60	SHARE	new	n	n	6206
2	80	ORDER	Silent	Purple	61	EIGHT	old	m	m	775
2	80	ORDER	Silent	Purple	62	EXTRA	old	m	n	1211
2	80	ORDER	Silent	Purple	63	SOUTH	old	m	m	579
2	80	ORDER	Silent	Purple	64	THING	old	m	m	704
2	80	ORDER	Silent	Purple	65	PHASE	new	n	n	739
2	80	ORDER	Silent	Purple	66	LEAVE	new	n	m	872
2	80	ORDER	Silent	Purple	67	LOUIS	old	m	m	744
2	80	ORDER	Silent	Purple	68	SCALE	new	n	m	1746
2	80	ORDER	Silent	Purple	69	ISSUE	old	m	m	749
2	80	ORDER	Silent	Purple	70	MORAL	old	m	m	681
2	80	ORDER	Silent	Purple	71	FIGHT	new	n	n	783
2	80	ORDER	Silent	Purple	72	SCENE	new	n	n	1578
2	80	ORDER	Silent	Purple	73	WHEEL	new	n	m	797
2	80	ORDER	Silent	Purple	74	SERVE	old	m	m	1247
2	80	ORDER	Silent	Purple	75	SEVEN	old	m	n	1142
2	80	ORDER	Silent	Purple	76	IMAGE	old	m	n	1097
2	80	ORDER	Silent	Purple	77	TASTE	new	n	n	1081
2	80	ORDER	Silent	Purple	78	ORDER	old	m	m	862
2	80	ORDER	Silent	Purple	79	SIGHT	new	n	n	862
2	80	ORDER	Silent	Purple	80	TABLE	new	n	n	966
2	80	ORDER	Silent	Purple	81	TOTAL	new	n	n	1136
2	80	ORDER	Silent	Purple	82	EVENT	old	m	n	1851
2	80	ORDER	Silent	Purple	83	STAND	new	n	m	2132
2	80	ORDER	Silent	Purple	84	ROUND	new	n	n	1912
2	80	ORDER	Silent	Purple	85	UNCLE	new	n	n	806
2	80	ORDER	Silent	Purple	86	QUICK	old	m	n	1823
2	80	ORDER	Silent	Purple	87	MARCH	new	n	n	1664
2	80	ORDER	Silent	Purple	88	WHITE	new	n	n	1566
2	80	ORDER	Silent	Purple	89	SENSE	new	n	n	1531
2	80	ORDER	Silent	Purple	90	TOUCH	old	m	n	2150
2	80	ORDER	Silent	Purple	91	LEWIS	old	m	n	971
2	80	ORDER	Silent	Purple	92	WOMEN	old	m	m	725
2	80	ORDER	Silent	Purple	93	THREE	old	m	m	1242
2	80	ORDER	Silent	Purple	94	WATER	old	m	n	1210
2	80	ORDER	Silent	Purple	95	NORTH	old	m	n	1258
2	80	ORDER	Silent	Purple	96	WRONG	new	n	n	1145
2	80	ORDER	Silent	Purple	97	VOICE	old	m	n	5597
2	80	ORDER	Silent	Purple	98	HOUSE	old	m	n	1191
2	80	ORDER	Silent	Purple	99	LIGHT	old	m	n	930
2	80	ORDER	Silent	Purple	100	HEART	old	m	n	1141
2	80	ORDER	Silent	Purple	101	STORE	new	n	m	1217
2	80	ORDER	Silent	Purple	102	IDEAL	old	m	n	850
2	80	ORDER	Silent	Purple	103	SLEEP	old	m	n	1874
2	80	ORDER	Silent	Purple	104	METAL	old	m	n	1080
2	80	ORDER	Silent	Purple	105	STAFF	new	n	n	1078
2	80	ORDER	Silent	Purple	106	THEME	old	m	m	1261
2	80	ORDER	Silent	Purple	107	PRICE	new	n	n	1045
2	80	ORDER	Silent	Purple	108	LOCAL	old	m	n	2195
2	80	ORDER	Silent	Purple	109	SHORT	old	m	n	918
2	80	ORDER	Silent	Purple	110	NOVEL	old	m	n	1162
2	80	ORDER	Silent	Purple	111	MOTOR	new	n	n	981
2	80	ORDER	Silent	Purple	112	STYLE	new	n	n	2126
2	80	ORDER	Silent	Purple	113	PHONE	old	m	n	1163
2	80	ORDER	Silent	Purple	114	POINT	old	m	n	2055
2	80	ORDER	Silent	Purple	115	TRUCK	new	n	n	974
2	80	ORDER	Silent	Purple	116	LEAST	old	m	n	1482
2	80	ORDER	Silent	Purple	117	YOUTH	old	m	n	839
2	80	ORDER	Silent	Purple	118	MONEY	new	n	n	1055
2	80	ORDER	Silent	Purple	119	DRINK	new	n	n	1207
2	80	ORDER	Silent	Purple	120	FLESH	new	n	n	688
2	80	ORDER	Silent	Purple	121	FLOOR	new	n	n	1102
2	80	ORDER	Silent	Purple	122	STORY	new	n	n	828
2	80	ORDER	Silent	Purple	123	PARTY	old	m	n	989
2	80	ORDER	Silent	Purple	124	OFFER	old	m	m	887
2	80	ORDER	Silent	Purple	125	GUESS	old	m	n	2165
2	80	ORDER	Silent	Purple	126	SHORE	old	m	m	2519
2	80	ORDER	Silent	Purple	127	START	new	n	n	947
2	80	ORDER	Silent	Purple	128	PLANT	old	m	n	799
2	80	ORDER	Silent	Purple	129	STAGE	new	n	n	1578
2	80	ORDER	Silent	Purple	130	MODEL	old	m	m	1060
2	80	ORDER	Silent	Purple	131	STATE	old	m	m	1146
2	80	ORDER	Silent	Purple	132	GROSS	old	m	m	1079
2	80	ORDER	Silent	Purple	133	LATIN	new	n	n	982
2	80	ORDER	Silent	Purple	134	TITLE	new	n	n	1089
2	80	ORDER	Silent	Purple	135	SMITH	new	n	n	1022
2	80	ORDER	Silent	Purple	136	DREAM	new	n	m	2375
2	80	ORDER	Silent	Purple	137	VISIT	old	m	m	841
2	80	ORDER	Silent	Purple	138	SMILE	old	m	m	1016
2	80	ORDER	Silent	Purple	139	TRIAL	old	m	n	2075
2	80	ORDER	Silent	Purple	140	TRUST	new	n	n	937
2	80	ORDER	Silent	Purple	141	PEACE	new	n	n	757
2	80	ORDER	Silent	Purple	142	SWEET	new	n	n	712
2	80	ORDER	Silent	Purple	143	PAPER	old	m	n	2342
2	80	ORDER	Silent	Purple	144	ENEMY	new	n	n	674
2	80	ORDER	Silent	Purple	145	WATCH	new	n	n	1193
2	80	ORDER	Silent	Purple	146	LEVEL	new	n	n	2530
2	80	ORDER	Silent	Purple	147	GRASS	new	n	n	1135
2	80	ORDER	Silent	Purple	148	MAJOR	old	m	n	2666
2	80	ORDER	Silent	Purple	149	WORLD	new	n	n	4074
2	80	ORDER	Silent	Purple	150	STUDY	new	n	n	1602
2	80	ORDER	Silent	Purple	151	REACH	new	n	n	1130
2	80	ORDER	Silent	Purple	152	DRIVE	new	n	n	2293
2	80	ORDER	Silent	Purple	153	WOMAN	old	m	m	541
2	80	ORDER	Silent	Purple	154	PIECE	new	n	m	1168
2	80	ORDER	Silent	Purple	155	PLANE	old	m	m	1187
2	80	ORDER	Silent	Purple	156	GREEK	old	m	m	733
2	80	ORDER	Silent	Purple	157	STONE	old	m	n	2249
2	80	ORDER	Silent	Purple	158	THICK	new	n	n	2025
2	80	ORDER	Silent	Purple	159	INNER	old	m	n	1010
2	80	ORDER	Silent	Purple	160	OTHER	old	m	n	1763
